#   1 NUMBER                 Running object number                                     
#   2 XWIN_IMAGE             Windowed position estimate along x                         [pixel]
#   3 YWIN_IMAGE             Windowed position estimate along y                         [pixel]
#   4 X_WORLD                Barycenter position along world x axis                     [deg]
#   5 Y_WORLD                Barycenter position along world y axis                     [deg]
#   6 MAG_AUTO               Kron-like elliptical aperture magnitude                    [mag]
#   7 MAGERR_AUTO            RMS error for AUTO magnitude                               [mag]
#   8 FLUX_AUTO              Flux within a Kron-like elliptical aperture                [count]
#   9 FLUXERR_AUTO           RMS error for AUTO flux                                    [count]
#  10 FLUX_RADIUS            Fraction-of-light radii                                    [pixel]
#  11 FWHM_IMAGE             FWHM assuming a gaussian core                              [pixel]
#  12 BACKGROUND             Background at centroid position                            [count]
#  13 ALPHA_SKY              Right ascension of barycenter (native)                     [deg]
#  14 DELTA_SKY              Declination of barycenter (native)                         [deg]
#  15 A_IMAGE                Profile RMS along major axis                               [pixel]
#  16 B_IMAGE                Profile RMS along minor axis                               [pixel]
#  17 THETA_IMAGE            Position angle (CCW/x)                                     [deg]
         1    365.9068     10.3766   2.7275297819e+02  -1.8547164606e+01  -6.6970   0.0644     477.3261     28.30914      1.277     2.99     51.46957 272.7529782 -18.5471646     1.164     0.820  56.85
         2   1814.4770      1.0000   2.7347083200e+02  -1.7861103206e+01  99.0000  99.0000    -84.80403     13.37609    -23.738     3.45     50.14107 273.4708320 -17.8611032     1.193     0.289   0.00
         3    731.4821     19.8971   2.7294053166e+02  -1.8379866237e+01  -5.4530   0.1566     151.7709     21.89128      1.768     4.28     49.90234 272.9405317 -18.3798662     1.042     0.733  53.97
         4   1764.7400     47.4549   2.7346899112e+02  -1.7906475805e+01  -4.0683   0.4812     42.39704     18.78763      0.798     2.23     51.71794 273.4689911 -17.9064758     0.667     0.470 -76.05
         5   1319.8424     46.7322   2.7324739157e+02  -1.8115732536e+01  -4.1917   0.4407     47.49752     19.27638      1.157     2.78     50.76545 273.2473916 -18.1157325     0.792     0.344  74.56
         6     85.9251     57.7607   2.7263619384e+02  -1.8701041728e+01  -6.1481   0.0933     287.9117     24.73849      1.470     3.41     52.01272 272.6361938 -18.7010417     1.241     0.739  47.66
         7    407.0794     56.7088   2.7279657438e+02  -1.8549682538e+01  -4.6748   0.2911     74.11791     19.87016      1.253     4.64     51.08308 272.7965744 -18.5496825     1.115     0.549  63.50
         8   1646.5922     60.2544   2.7341689423e+02  -1.7968165049e+01  -4.3811   0.3747     56.55033     19.50978      1.610     4.18     50.98837 273.4168942 -17.9681650     0.909     0.549  49.98
         9   2007.7071     78.6206   2.7360514589e+02  -1.7806604628e+01  -6.0155   0.1022     254.8011     23.98972      1.139     2.04     51.72057 273.6051459 -17.8066046     0.949     0.627 -45.54
        10   1570.8584    108.4998   2.7340259638e+02  -1.8026643902e+01  -4.4496   0.4028     60.23311     22.34039      1.611     4.19     51.17558 273.4025964 -18.0266439     0.962     0.635   8.25
        11   1500.4783    129.4297   2.7337708223e+02  -1.8069257277e+01  -4.7831   0.2823      81.8912      21.2893      2.961     3.84      51.0294 273.3770822 -18.0692573     1.338     0.316  58.46
        12   1457.0727    124.3095   2.7335435899e+02  -1.8087793867e+01  -5.2207   0.1873     122.5393      21.1334      2.504     3.27     50.84655 273.3543590 -18.0877939     0.849     0.514  45.17
        13    647.9831    149.9280   2.7296312474e+02  -1.8480634974e+01  -4.7673   0.2696     80.71107     20.03538      1.363     3.33     50.99876 272.9631247 -18.4806350     0.915     0.676 -71.56
        14    211.3844    162.8545   2.7275152350e+02  -1.8692157882e+01  -4.5313   0.3547     64.93914     21.20815      1.793     4.19     51.17273 272.7515235 -18.6921579     1.144     0.437  76.72
        15    129.5536    159.7146   2.7270821374e+02  -1.8728953718e+01  -3.9307   0.5502     37.34766     18.92229      0.964     3.84     52.17685 272.7082137 -18.7289537     1.049     0.403  17.66
        16    784.3977    178.4154   2.7304540521e+02  -1.8429971222e+01  -5.4631   0.1549     153.1866     21.84646      1.209     2.75     50.97876 273.0454052 -18.4299712     0.930     0.816   0.89
        17    226.2447    202.6192   2.7277807785e+02  -1.8704768014e+01  -4.0612   0.4911     42.11899     19.04795      2.012     2.92     51.03662 272.7780778 -18.7047680     1.309     0.191 -58.28
        18    334.2841    213.4241   2.7283753521e+02  -1.8657918416e+01  -5.5645   0.1810     168.1948     28.03524      4.295     4.62     50.59966 272.8375352 -18.6579184     0.818     0.741   0.09
        19   1380.1667    215.8272   2.7336125137e+02  -1.8167198319e+01  -5.1562   0.1972     115.4733     20.96556      1.924     4.61      50.8259 273.3612514 -18.1671983     1.002     0.601 -25.43
        20   1490.5143    219.9313   2.7341812016e+02  -1.8117118387e+01  99.0000  99.0000    -5.648632     17.90825     -0.908     2.90     52.03582 273.4181202 -18.1171184     0.766     0.322 -57.01
        21   1573.9440    221.1521   2.7346017785e+02  -1.8078659109e+01  -3.5788   0.7387     27.01075     18.37358      0.608     0.93     52.35361 273.4601779 -18.0786591     0.523     0.455 -50.47
        22   1855.4239    228.6871   2.7360372510e+02  -1.7948966113e+01  -4.7601   0.2678     80.17401     19.76744      0.869     3.74     52.12624 273.6037251 -17.9489661     0.722     0.555 -59.90
        23    914.2856    237.8526   2.7313970809e+02  -1.8396932201e+01  -6.6032   0.0704     437.7913     28.38589      1.438     2.50     50.96837 273.1397081 -18.3969322     1.083     1.045  69.10
        24    816.9739    231.6204   2.7308816976e+02  -1.8439851846e+01  -5.2158   0.1887     121.9913      21.2002      1.728     2.10      50.7676 273.0881698 -18.4398518     0.695     0.637  35.17
        25    480.4392    236.5422   2.7292231370e+02  -1.8600202574e+01  -4.7563   0.2721     79.89561     20.01502      2.310     3.29     50.91631 272.9223137 -18.6002026     1.396     0.225  34.88
        26    522.9744    249.0214   2.7294970184e+02  -1.8586406263e+01  -4.7954   0.2634     82.82128     20.08797      2.685     3.14     50.80283 272.9497018 -18.5864063     0.721     0.398  88.66
        27   1399.5444    252.6927   2.7338894061e+02  -1.8175592405e+01  -5.3389   0.1706     136.6303     21.46419      2.304     3.20     50.73863 273.3889406 -18.1755924     0.792     0.511 -42.79
        28   1128.7362    270.4336   2.7326288143e+02  -1.8311409472e+01  -5.8534   0.1150     219.4554     23.24136      1.086     2.26     51.06227 273.2628814 -18.3114095     0.880     0.726 -41.10
        29    953.8650    282.6198   2.7318185900e+02  -1.8399534485e+01  -5.0285   0.2177     102.6618     20.57589      1.850     3.10     50.83662 273.1818590 -18.3995345     0.778     0.481 -57.18
        30     54.9146    289.7711   2.7273568118e+02  -1.8825557057e+01  -4.2047   0.4378     48.06917      19.3785      0.968     4.05     52.30864 272.7356812 -18.8255571     0.912     0.515  45.00
        31    516.0993    296.2007   2.7296942916e+02  -1.8611933362e+01  -4.2223   0.4312     48.85488     19.39876      1.805     3.11     51.13617 272.9694292 -18.6119334     1.001     0.282  39.55
        32    976.0607    299.6655   2.7320133578e+02  -1.8396905831e+01  -5.0275   0.2152     102.5661     20.32594      2.408     0.94     50.75974 273.2013358 -18.3969058     0.549     0.431 -46.25
        33    351.8625    309.5807   2.7289435065e+02  -1.8695488770e+01  -4.6570   0.2955     72.90976     19.83974      1.541     4.37     51.14921 272.8943506 -18.6954888     1.120     0.485  39.97
        34   1212.9866    310.3766   2.7332457129e+02  -1.8290684808e+01  -4.6820   0.2906     74.61346     19.96734      1.387     3.00      50.8717 273.3245713 -18.2906848     0.732     0.450 -17.92
        35   1161.6942    320.0692   2.7330376912e+02  -1.8319369522e+01  -5.1540   0.1968     115.2412     20.87933      1.443     3.61     50.91628 273.3037691 -18.3193695     0.930     0.668  57.67
        36    607.7914    325.8807   2.7303091065e+02  -1.8582524216e+01  -4.5118   0.3353     63.78753     19.69438      1.860     3.71     51.01095 273.0309106 -18.5825242     1.118     0.354  45.01
        37    823.5701    327.4658   2.7313889134e+02  -1.8481808877e+01  -4.9110   0.2395     92.12556     20.31824      1.617     3.32     50.71789 273.1388913 -18.4818089     0.920     0.348  43.36
        38   1094.6082    336.1334   2.7327835092e+02  -1.8358544428e+01  -4.9348   0.2359     94.16917     20.45117      1.340     2.23      50.9564 273.2783509 -18.3585444     0.736     0.496 -84.01
        39    728.5289    351.0868   2.7310300176e+02  -1.8538046229e+01  -5.1317   0.2239     112.8968     23.27293      2.288     4.33     50.64216 273.1030018 -18.5380462     1.156     0.623 -76.29
        40    437.5416    349.9160   2.7295693943e+02  -1.8674217770e+01  -4.4615   0.3499     60.89839      19.6209      1.185     4.09     52.26587 272.9569394 -18.6742178     1.009     0.473  32.81
        41    707.8218    357.2437   2.7309612517e+02  -1.8550498330e+01  -4.8139   0.2561      84.2489     19.87025      3.019     3.71     50.76535 273.0961252 -18.5504983     0.849     0.466 -14.86
        42    458.7197    371.3581   2.7297803132e+02  -1.8674363143e+01  -5.3068   0.1750     132.6483     21.37123      1.046     2.91     52.43747 272.9780313 -18.6743631     0.917     0.617  46.28
        43    754.0409    374.7430   2.7312739221e+02  -1.8537223740e+01  -4.4515   0.3529     60.33836     19.60662      1.820     3.67     50.71334 273.1273922 -18.5372237     1.101     0.353 -45.67
        44    701.6037    390.1676   2.7310934161e+02  -1.8569036793e+01  -4.9931   0.2240     99.36215     20.49555      2.140     2.46     51.05572 273.1093416 -18.5690368     0.985     0.289  90.00
        45    768.6409    392.6158   2.7314432081e+02  -1.8539267561e+01  -5.0663   0.2429     106.2927     23.77831      2.915     3.85      50.9217 273.1443208 -18.5392676     1.107     0.465  33.98
        46    833.2698    418.6083   2.7319135247e+02  -1.8520620405e+01  -5.0125   0.2965     101.1583     27.61927      3.519     4.65     51.10495 273.1913525 -18.5206204     1.023     0.601  46.97
        47    795.0718    425.7594   2.7317342686e+02  -1.8542037298e+01  -4.4417   0.3574     59.79872     19.67882      1.580     3.91     51.11756 273.1734269 -18.5420373     0.859     0.509  42.26
        48   1645.9911    443.4390   2.7360611564e+02  -1.8149175589e+01  -6.4279   0.0771     372.5451     26.45755      1.162     2.18     52.01103 273.6061156 -18.1491756     1.007     0.668 -55.17
        49    439.6892    463.9197   2.7301433752e+02  -1.8727240186e+01  -5.0806   0.2095     107.7042     20.77945      1.075     2.94     52.18364 273.0143375 -18.7272402     1.060     0.742  59.57
        50   1707.3525    459.6073   2.7364465389e+02  -1.8127823669e+01  -4.4590   0.3444     60.75982     19.27012      1.049     0.99     52.08073 273.6446539 -18.1278237     0.576     0.409 -45.00
        51   1018.1683    473.1989   2.7330815826e+02  -1.8459315638e+01  -3.3535   0.9159     21.94909     18.51093      0.710     2.95     51.59068 273.3081583 -18.4593156     0.688     0.399  -3.09
        52    627.2300    482.8402   2.7311768364e+02  -1.8647908310e+01  -4.6309   0.3020     71.17971     19.79609      1.300     3.80     52.08239 273.1176836 -18.6479083     1.004     0.503  71.96
        53   1831.3228    483.9066   2.7371827254e+02  -1.8080838916e+01  -4.4946   0.3417     62.78131     19.75445      0.946     3.05     51.97097 273.7182725 -18.0808389     0.769     0.412 -68.44
        54    602.3780    494.0059   2.7311067945e+02  -1.8664785706e+01  -3.9372   0.5496     37.57439     19.01725      1.027     4.59     52.10676 273.1106795 -18.6647857     1.073     0.556  65.96
        55   1198.0339    501.5158   2.7341185646e+02  -1.8387868795e+01  -6.7651   0.0615      508.202     28.79075      1.111     2.27     51.87352 273.4118565 -18.3878688     0.947     0.826 -65.29
        56    243.0089    519.8587   2.7294362908e+02  -1.8845991401e+01  -3.7359   0.6527     31.21458     18.75953      0.859     2.86     52.17818 272.9436291 -18.8459914     0.782     0.308  32.57
        57    412.7617    533.9458   2.7303575146e+02  -1.8772901974e+01  -4.5246   0.3303     64.54343     19.62776      1.267     4.65     52.16863 273.0357515 -18.7729020     1.222     0.502  45.62
        58   1130.8231    531.9172   2.7339358248e+02  -1.8434005303e+01  -4.8421   0.2534     86.46741     20.17852      1.371     3.84      51.3997 273.3935825 -18.4340053     0.801     0.528 -59.95
        59    823.6431    543.2236   2.7324583425e+02  -1.8584173788e+01  -4.5910   0.3082     68.61112     19.47278      0.931     2.37     52.26833 273.2458343 -18.5841738     0.760     0.537  38.45
        60   1340.2167    549.0565   2.7350633934e+02  -1.8343257812e+01  -4.2189   0.4305     48.70386     19.30764      0.996     2.51     52.16208 273.5063393 -18.3432578     0.713     0.662 -85.48
        61   1524.1089    583.7799   2.7361504448e+02  -1.8272918754e+01  -5.8965   0.1114     228.3405     23.43173      1.395     2.45     51.84369 273.6150445 -18.2729188     1.119     0.727 -35.81
        62    260.7042    591.1091   2.7298801414e+02  -1.8871429899e+01  -5.4984   0.1502     158.2631     21.88535      1.276     4.48     52.28548 272.9880141 -18.8714299     1.269     0.617  30.75
        63   1116.9299    614.0246   2.7342724053e+02  -1.8479469434e+01  -3.1144   1.1399     17.61072     18.48491      0.448     2.64      51.9349 273.4272405 -18.4794694     0.833     0.636 -73.08
        64   1889.1760    616.7070   2.7381283067e+02  -1.8116221686e+01  -5.0072   0.2215     100.6652     20.52731      2.553     2.09     51.87008 273.8128307 -18.1162217     0.756     0.456 -59.85
        65   1144.7290    619.8338   2.7344407093e+02  -1.8468868324e+01  -5.2843   0.1774     129.9306     21.22819      1.010     2.32      52.0448 273.4440709 -18.4688683     0.768     0.646 -55.34
        66   1417.0745    638.4304   2.7358891320e+02  -1.8349175121e+01  -5.3886   0.1647     143.0408     21.69096      1.202     2.95     52.05414 273.5889132 -18.3491751     1.117     0.547 -62.32
        67   1658.4680    636.6121   2.7370805696e+02  -1.8234560083e+01  -4.3510   0.3844     55.00322     19.47009      1.400     3.75     51.92181 273.7080570 -18.2345601     0.943     0.428 -45.58
        68   1103.8786    656.4680   2.7344208439e+02  -1.8505566682e+01  -3.6173   0.7281     27.98562     18.76344      0.882     3.80     51.31145 273.4420844 -18.5055667     0.651     0.636 -76.62
        69   1104.9841    679.4694   2.7345366513e+02  -1.8518129460e+01  -4.8780   0.2983     89.37215     24.54589      2.920     4.52     51.18117 273.4536651 -18.5181295     1.166     0.497 -32.60
        70   2004.1858    679.1282   2.7390055533e+02  -1.8090260653e+01  -4.9991   0.2229     99.91365       20.509      2.157     3.75       51.875 273.9005553 -18.0902607     0.914     0.442  44.05
        71   1457.7350    683.0610   2.7363148519e+02  -1.8351277647e+01  -4.4363   0.3495     59.49835     19.14942      1.315     4.23     52.04353 273.6314852 -18.3512776     1.163     0.439 -45.72
        72    639.6494    692.2186   2.7322774523e+02  -1.8741043292e+01  -4.6613   0.2957     73.19876     19.93188      1.043     3.00     52.19122 273.2277452 -18.7410433     0.996     0.601  58.50
        73   1130.3735    708.3084   2.7348130358e+02  -1.8517720214e+01  -3.0397   1.2780     16.43986     19.34631      0.860     4.47     51.17434 273.4813036 -18.5177202     1.158     0.491  85.70
        74   1691.4586    706.7154   2.7375925064e+02  -1.8251968026e+01  -4.7004   0.2862     75.88521     19.99916      1.150     3.68     52.01353 273.7592506 -18.2519680     0.790     0.507 -45.32
        75    406.7500    715.9978   2.7312332968e+02  -1.8861883482e+01  -6.1577   0.0929      290.456     24.85786      1.399     4.33     52.26583 273.1233297 -18.8618835     1.765     0.578  35.83
        76   1116.8839    724.5652   2.7348165246e+02  -1.8531496337e+01  -4.6688   0.2988     73.71104     20.28043      1.175     4.12     51.40273 273.4816525 -18.5314963     1.060     0.611  37.14
        77     26.8025    728.0976   2.7293835678e+02  -1.9046372009e+01  -5.2251   0.1866     123.0387     21.14521      1.287     5.00     52.40776 272.9383568 -19.0463720     1.393     0.614  36.36
        78    101.0695   1014.6419   2.7311797058e+02  -1.9147070337e+01  -5.8579   0.1209     220.3798     24.53264      1.681     5.57     52.07249 273.1179706 -19.1470703     1.675     0.700  29.97
        79   1508.6869   2032.1202   2.7432839253e+02  -1.8961799726e+01  -4.8846   0.2458     89.91279     20.34684      2.020     2.88     51.78693 274.3283925 -18.9617997     0.804     0.304  58.71
        80   1912.7310   2014.3827   2.7452061476e+02  -1.8761998668e+01  -6.9151   0.0559     583.4935     30.01371      1.324     2.94     51.69983 274.5206148 -18.7619987     1.105     0.766 -69.60
        81   1204.1198   2016.0854   2.7416937972e+02  -1.9098498786e+01  99.0000  99.0000    -7.731167      17.3335      0.000     1.15     52.29902 274.1693797 -19.0984988     0.531     0.466 -44.99
        82   1321.8860   2006.6936   2.7422293964e+02  -1.9038237901e+01  -4.9499   0.2311     95.49151       20.318      1.371     3.45      51.9647 274.2229396 -19.0382379     0.832     0.662 -83.84
        83   1822.9200   2001.3770   2.7446951839e+02  -1.8798398180e+01  -7.7896   0.0339     1305.694     40.74503      1.442     4.30     51.73976 274.4695184 -18.7983982     1.303     0.837 -56.29
        84   1193.1988   1999.5673   2.7415535493e+02  -1.9095904856e+01  -4.9853   0.2263     98.65724     20.56061      0.975     2.01     52.09838 274.1553549 -19.0959049     0.781     0.660 -84.68
        85   1841.8284   1988.5189   2.7447250004e+02  -1.8783567920e+01  -5.5896   0.1405     172.1224     22.27563      1.766     3.38     51.68397 274.4725000 -18.7835679     1.204     0.551 -71.18
        86   1311.0699   1982.6750   2.7420547086e+02  -1.9032151577e+01  -4.5746   0.3166     67.58202     19.70501      1.655     2.90     51.91544 274.2054709 -19.0321516     0.762     0.323 -33.09
        87    511.4062   1977.4460   2.7380350914e+02  -1.9407749518e+01  -4.9073   0.2402      91.8145     20.31059      1.510     4.33     51.90276 273.8035091 -19.4077495     1.286     0.415  27.55
        88    307.8936   1965.6719   2.7369577908e+02  -1.9498319036e+01  -4.1440   0.4593     45.45647     19.22336      0.845     2.98     52.21505 273.6957791 -19.4983190     0.946     0.700  48.30
        89   1419.8441   1957.3372   2.7424709268e+02  -1.8968721270e+01  -7.4698   0.0402     972.5468     36.00872      1.274     2.46      51.9315 274.2470927 -18.9687213     1.100     0.804 -53.77
        90    864.6229   1959.3716   2.7397111445e+02  -1.9232392808e+01  -5.0064   0.2225     100.5953     20.60768      1.254     3.21     51.99108 273.9711144 -19.2323928     0.858     0.729  27.11
        91    469.7210   1951.3225   2.7376977470e+02  -1.9415067422e+01  -4.8664   0.2484     88.42143     20.22688      2.128     3.13     51.97131 273.7697747 -19.4150674     0.691     0.412  88.26
        92   1819.6228   1948.4937   2.7444179068e+02  -1.8775168225e+01  -4.8430   0.2543     86.53812     20.26374      2.211     3.76     51.64819 274.4417907 -18.7751682     0.823     0.494 -59.34
        93    700.1377   1942.0193   2.7388050063e+02  -1.9301991664e+01  -5.1575   0.1970     115.6149     20.96893      1.178     3.00     51.95742 273.8805006 -19.3019917     0.715     0.666 -58.22
        94   1956.3363   1930.2951   2.7450018811e+02  -1.8701868007e+01  -7.3551   0.0435      875.058     35.01637      1.489     5.68     51.54469 274.5001881 -18.7018680     1.334     0.819 -69.14
        95   1715.7433   1921.3001   2.7437619519e+02  -1.8811903110e+01  -4.9277   0.2334     93.55494     20.10305      1.936     0.92     51.66064 274.3761952 -18.8119031     0.517     0.478 -44.99
        96    674.9514   1916.7931   2.7385562382e+02  -1.9302146468e+01  -5.0575   0.2126     105.4367     20.64321      2.761     2.10     51.93401 273.8556238 -19.3021465     0.762     0.327  74.06
        97   1381.9908   1915.4313   2.7420730998e+02  -1.8966836206e+01  -4.9580   0.2314     96.20901     20.50098      1.028     4.01     51.98213 274.2073100 -18.9668362     0.955     0.671 -43.21
        98   1555.6771   1899.3518   2.7428558397e+02  -1.8877148057e+01  -5.1645   0.1959     116.3563      20.9866      1.469     3.39       51.827 274.2855840 -18.8771481     0.771     0.432 -69.25
        99   1621.0404   1888.8207   2.7431298578e+02  -1.8841342972e+01  -5.2900   0.1780     130.6138     21.40259      2.214     3.89     51.66874 274.3129858 -18.8413430     0.863     0.502 -67.09
       100    780.3136   1876.0785   2.7388744647e+02  -1.9233023704e+01  -5.3793   0.1647     141.8112      21.5062      1.326     3.87     51.96255 273.8874465 -19.2330237     1.036     0.694  31.40
       101   1633.0286   1863.1433   2.7430611400e+02  -1.8823466006e+01  -5.9085   0.1108     230.8877     23.55778      1.700     3.82     51.70278 274.3061140 -18.8234660     1.169     0.554 -52.29
       102    830.3931   1863.1231   2.7390602151e+02  -1.9203310492e+01  -5.4106   0.1613     145.9679     21.68062      1.394     3.07     51.98077 273.9060215 -19.2033105     0.770     0.692  71.13
       103   2028.3361   1839.3427   2.7449052512e+02  -1.8625361936e+01  -4.7909   0.2644     82.47971     20.07947      2.084     4.35      51.6844 274.4905251 -18.6253619     0.945     0.570 -56.47
       104   1850.8435   1835.2628   2.7440035714e+02  -1.8707286114e+01  -4.5876   0.3145     68.40059     19.81116      1.586     3.87     51.85029 274.4003571 -18.7072861     1.246     0.344 -62.43
       105   1461.0330   1830.1706   2.7420395205e+02  -1.8889435148e+01  -5.1949   0.1919     119.6658     21.14528      1.568     2.52     51.90661 274.2039520 -18.8894351     0.677     0.493 -90.00
       106    356.6103   1830.1356   2.7365270382e+02  -1.9411430110e+01  -5.3981   0.1629     144.2849     21.64177      1.519     3.40     52.07829 273.6527038 -19.4114301     1.074     0.675  19.62
       107   1960.1808   1827.7801   2.7445077364e+02  -1.8652245525e+01  -4.6369   0.3018     71.57181     19.89103      1.766     3.33      51.8088 274.4507736 -18.6522455     0.720     0.448  88.08
       108   1277.3662   1822.9026   2.7410891883e+02  -1.8972903003e+01  -5.5284   0.1473     162.6829     22.06273      1.067     2.19     52.13092 274.1089188 -18.9729030     0.923     0.677 -50.73
       109   1626.3293   1809.1300   2.7427599792e+02  -1.8801385223e+01  -3.4400   0.8313     23.76773     18.19257      1.013     2.91     51.90831 274.2759979 -18.8013852     1.225     0.204 -67.81
       110    423.7711   1806.6792   2.7367434201e+02  -1.9368847030e+01  -6.2860   0.0837     326.8871     25.18113      1.429     3.40     52.07684 273.6743420 -19.3688470     1.347     0.699  30.69
       111   1449.6205   1802.6732   2.7418471771e+02  -1.8881908889e+01  -4.6296   0.3049     71.09718     19.96382      1.320     3.06     51.96424 274.1847177 -18.8819089     0.913     0.352 -44.37
       112   1923.4298   1801.4037   2.7441949747e+02  -1.8657048178e+01  -4.3709   0.3712     56.02071     19.14676      1.289     3.32     51.80099 274.4194975 -18.6570482     0.831     0.386 -67.41
       113   1414.2789   1797.4666   2.7416449395e+02  -1.8896054093e+01  -3.2415   0.9920      19.7964      18.0831      0.618     2.97     52.00483 274.1644939 -18.8960541     0.707     0.466 -70.61
       114   1335.8787   1796.4551   2.7412482073e+02  -1.8932685150e+01  -3.9049   0.5627     36.47277     18.89916      1.055     4.00     52.16214 274.1248207 -18.9326851     0.930     0.493 -36.18
       115    917.8818   1792.4297   2.7391455084e+02  -1.9128617194e+01  -4.5196   0.3316     64.24763     19.62022      0.995     2.29     52.10875 273.9145508 -19.1286172     0.788     0.575  67.77
       116   1290.9618   1777.9954   2.7409336231e+02  -1.8945634627e+01  99.0000  99.0000   -0.1325951     17.90825     -0.015     2.39     52.22369 274.0933623 -18.9456346     0.711     0.615  81.31
       117    111.8086   1775.4736   2.7350267738e+02  -1.9503636323e+01  99.0000  99.0000     -7.85515     17.90825     -1.398     3.09     52.32681 273.5026774 -19.5036363     1.068     0.261  51.39
       118   1485.8419   1774.8017   2.7418893311e+02  -1.8851555915e+01  -4.7785   0.2671     81.54695     20.05623      1.601     2.26     51.90803 274.1889331 -18.8515559     0.799     0.321 -69.76
       119    603.5627   1773.0001   2.7374775659e+02  -1.9268018726e+01  99.0000  99.0000    -24.07538     17.90825     -4.252     2.89     52.30219 273.7477566 -19.2680187     0.793     0.310  57.97
       120    994.1340   1752.0615   2.7393235184e+02  -1.9073403511e+01  -3.5236   0.7950      25.6698     18.79167      0.644     3.79     52.24595 273.9323518 -19.0734035     0.933     0.656  85.94
       121   1776.0263   1743.7951   2.7431745079e+02  -1.8699921688e+01  -4.7276   0.2786     77.81027     19.96286      1.520     2.55     51.84403 274.3174508 -18.6999217     0.661     0.422 -85.45
       122    528.2546   1740.0484   2.7369324113e+02  -1.9288407039e+01  -4.0381   0.5011     41.23361     19.02469      0.991     5.68     52.13167 273.6932411 -19.2884070     1.350     0.674   8.31
       123    713.0677   1736.0206   2.7378412722e+02  -1.9198816087e+01  99.0000  99.0000     -1.83772     17.90825     -0.369     3.20     52.24369 273.7841272 -19.1988161     0.706     0.421 -88.37
       124    761.9187   1700.0349   2.7379039962e+02  -1.9159152906e+01  -1.3234   5.7483     3.383387     17.90846      0.313     3.12     52.25579 273.7903996 -19.1591529     1.300     0.218 -36.36
       125    476.8144   1696.8021   2.7364585857e+02  -1.9291869043e+01  -3.1077   1.1412     17.50094     18.39039      0.673     3.36     52.20131 273.6458586 -19.2918690     0.771     0.423  66.39
       126   1178.0416   1591.4099   2.7394390497e+02  -1.8910970637e+01  -5.6615   0.1327     183.9051     22.46354      1.151     2.20     52.08214 273.9439050 -18.9109706     0.862     0.641 -35.00
       127   1840.2593   1589.1561   2.7427232558e+02  -1.8596697664e+01  -5.2787   0.1789     129.2635     21.29189      1.939     3.73     51.72746 274.2723256 -18.5966977     1.025     0.391 -75.41
       128   1404.5945   1580.5694   2.7405137981e+02  -1.8798824640e+01  -6.5202   0.0717     405.5943     26.76139      1.343     3.83     51.88872 274.0513798 -18.7988246     1.091     0.684 -57.39
       129   1796.5178   1572.5423   2.7424265927e+02  -1.8609472163e+01  -5.2035   0.2018     120.6149     22.40726      2.651     4.36     51.68225 274.2426593 -18.6094722     0.949     0.571 -59.07
       130    947.5158   1567.3953   2.7381686964e+02  -1.9008548738e+01  -5.2757   0.1786     128.9126      21.2042      1.481     3.25     51.98654 273.8168696 -19.0085487     1.007     0.731 -41.19
       131   1049.0501   1558.8072   2.7386337272e+02  -1.8956651271e+01  -3.9282   0.5514     37.26247     18.92004      0.785     4.02     52.10268 273.8633727 -18.9566513     0.791     0.585  80.97
       132    144.5003   1554.0000   2.7340862258e+02  -1.9381292618e+01  99.0000  99.0000    -32.13132     17.90825    -23.361     4.64     51.99313 273.4086226 -19.3812926     1.225     0.500 -26.57
       133   1234.6611   1473.8459   2.7391342632e+02  -1.8829021442e+01  -4.5296   0.3274     64.83949     19.54914      1.273     3.36      52.0771 273.9134263 -18.8290214     0.753     0.435 -66.33
       134   1402.5016   1450.8342   2.7398561734e+02  -1.8738562282e+01  -4.9568   0.2279     96.09812     20.16621      1.124     2.95     51.89796 273.9856173 -18.7385623     0.987     0.530 -54.30
       135   1888.3584   1449.7623   2.7422673281e+02  -1.8508779518e+01  -3.8984   0.5659     36.25455     18.89338      1.594     4.59     51.79613 274.2267328 -18.5087795     0.851     0.702  81.63
       136    223.8926   1448.3810   2.7339558391e+02  -1.9294013311e+01  -5.2631   0.1811      127.423     21.24863      1.232     3.51     52.07498 273.3955839 -19.2940133     1.061     0.754  33.95
       137    475.6053   1436.9090   2.7351608976e+02  -1.9169954301e+01  -5.1019   0.2060     109.8412      20.8308      1.540     3.42     51.81304 273.5160898 -19.1699543     1.055     0.441  43.02
       138   2034.3530   1427.5910   2.7428774552e+02  -1.8428755964e+01  -5.1346   0.2006     113.2017     20.91131      2.345     4.40     51.57952 274.2877455 -18.4287560     1.637     0.337 -71.80
       139   1686.8439   1416.9198   2.7411017908e+02  -1.8588320371e+01  -5.3661   0.1670     140.1069     21.54503      2.084     2.18     51.81991 274.1101791 -18.5883204     0.711     0.495 -60.32
       140   1159.5473   1404.3836   2.7384152161e+02  -1.8832056683e+01  -3.6495   0.7077     28.82633     18.78584      0.891     3.94     52.22089 273.8415216 -18.8320567     0.781     0.569 -45.02
       141   1917.6136   1385.7728   2.7420931164e+02  -1.8464408671e+01  -5.9980   0.1038      250.726     23.97514      1.525     3.51     51.71828 274.2093116 -18.4644087     1.151     0.599 -55.93
       142    637.0183   1384.9469   2.7357088397e+02  -1.9069242913e+01  -5.1809   0.1926     118.1268     20.94832      1.522     4.18     52.06949 273.5708840 -19.0692429     1.062     0.845 -26.67
       143    376.5774   1384.6586   2.7344055526e+02  -1.9191842137e+01  -4.2351   0.4246     49.43711     19.32662      1.199     4.81      52.0143 273.4405553 -19.1918421     0.923     0.711  73.20
       144    497.9706   1346.2996   2.7348191704e+02  -1.9116703441e+01  -5.1380   0.2001     113.5552     20.91976      1.258     3.15     51.86546 273.4819170 -19.1167034     1.035     0.592  29.46
       145   1935.6488   1100.5271   2.7407756820e+02  -1.8321269906e+01  -4.5788   0.3169     67.84317     19.79708      2.421     3.25     51.83456 274.0775682 -18.3212699     1.187     0.259 -16.92
       146   1587.4423   1093.5937   2.7389942530e+02  -1.8482800140e+01  -4.0402   0.4931     41.31278     18.75875      1.921     3.25     51.94075 273.8994253 -18.4828001     1.170     0.262 -17.64
       147   1785.1879   1082.6317   2.7399273761e+02  -1.8384730979e+01  -4.2443   0.4212     49.85691     19.33748      1.401     3.70      51.8257 273.9927376 -18.3847310     0.984     0.399 -45.00
       148   1363.2148   1081.9650   2.7378243005e+02  -1.8583585900e+01  -6.6519   0.0663     457.8848     27.96366      1.248     3.31     51.70586 273.7824301 -18.5835859     1.082     0.769 -62.91
       149   1903.0657   1082.0058   2.7405087238e+02  -1.8328549272e+01  99.0000  99.0000    -31.43978     18.09578     -5.362     3.72     53.22046 274.0508724 -18.3285493     0.998     0.400 -62.59
       150   1701.1346   1076.9499   2.7394836623e+02  -1.8422133815e+01  -5.1250   0.2014     112.2045     20.80649      2.242     2.50     51.66445 273.9483662 -18.4221338     0.757     0.487 -55.07
       151   1799.7261   1073.3609   2.7399563485e+02  -1.8373632461e+01  -5.0575   0.2783     105.4415     27.01801      3.177     5.47     51.89264 273.9956348 -18.3736325     1.471     0.575  70.30
       152   2022.4335    984.3329   2.7406148507e+02  -1.8226234173e+01  -5.5744   0.1417     169.7286     22.14574      1.771     4.17     51.58737 274.0614851 -18.2262342     1.218     0.582 -52.95
       153    783.3716    984.0992   2.7344477717e+02  -1.8811274877e+01  -5.3051   0.1726     132.4459     21.04813      1.235     2.42     52.01546 273.4447772 -18.8112749     0.693     0.608 -50.81
       154    782.7971    981.3346   2.7344288442e+02  -1.8810018109e+01  -5.9886   0.1042      248.576     23.85962      1.215     2.05     52.01777 273.4428844 -18.8100181     0.914     0.867 -79.35
       155    777.7904    980.0486   2.7343971622e+02  -1.8811799774e+01  -4.8057   0.2612     83.61388     20.10769      1.294     2.42     52.01573 273.4397162 -18.8117998     0.848     0.634  -3.91
       156   1990.4915    976.5016   2.7404166808e+02  -1.8237511596e+01  -5.3211   0.1717     134.4176     21.25434      2.669     3.80      51.6329 274.0416681 -18.2375116     1.372     0.303 -73.07
       157    740.6574    974.6005   2.7341848699e+02  -1.8826671136e+01  -4.1594   0.4532     46.10806      19.2403      1.033     3.12     51.97599 273.4184870 -18.8266711     0.857     0.724 -84.14
       158    860.6896    961.7249   2.7347203829e+02  -1.8764098224e+01  -6.9883   0.0535     624.2155     30.73956      1.174     2.25     52.01169 273.4720383 -18.7640982     0.947     0.888  -6.30
       159   1395.4551    958.5120   2.7373711135e+02  -1.8510257673e+01  -3.9679   0.5200     38.65052     18.50613      0.796     1.08     51.96399 273.7371114 -18.5102577     0.532     0.464 -44.40
       160   1735.3653    946.3965   2.7390016394e+02  -1.8344057967e+01  -5.2387   0.1818     124.5903     20.86069      1.025     1.84     51.90174 273.9001639 -18.3440580     0.690     0.574  81.62
       161    316.7312    939.0547   2.7318862293e+02  -1.9009812455e+01  -5.5119   0.1486     160.2327      21.9303      1.424     5.44      52.1926 273.1886229 -19.0098125     1.358     0.615  31.60
       162   1687.3949    924.1649   2.7386531954e+02  -1.8356195202e+01  -6.1860   0.0909     298.1242     24.94405      1.290     3.09     51.91405 273.8653195 -18.3561952     1.157     0.665 -50.82
       163    761.9932    923.4829   2.7340367848e+02  -1.8792659011e+01  -4.2805   0.4101     51.54784     19.46805      0.939     4.18     52.12684 273.4036785 -18.7926590     1.056     0.586  40.00
       164   1930.7177    919.6990   2.7398391508e+02  -1.8238993500e+01  -6.9995   0.0538     630.6659     31.22503      1.515     6.11     51.93703 273.9839151 -18.2389935     1.409     0.754 -60.31
       165    826.7864    884.8962   2.7341645244e+02  -1.8746904743e+01  99.0000  99.0000    -19.64215     18.00226     -3.068     2.52     52.24081 273.4164524 -18.7469047     0.757     0.319  32.68
       166   1957.4406    841.8032   2.7395846124e+02  -1.8189855355e+01  -5.2396   0.1845     124.6956     21.18435      1.420     4.00     51.97132 273.9584612 -18.1898554     1.282     0.537 -68.77
       167    993.9896    834.2440   2.7347506681e+02  -1.8641021308e+01  -4.0207   0.5087      40.5766     19.00742      0.861     4.06     52.25502 273.4750668 -18.6410213     0.793     0.603 -83.51
       168    488.2469    834.3091   2.7322254187e+02  -1.8879476052e+01  -4.0830   0.4819     42.97451     19.07039      1.026     3.30     52.11097 273.2225419 -18.8794761     0.922     0.342  19.00
       169   1038.5996    822.1443   2.7349382802e+02  -1.8604291751e+01  99.0000  99.0000    -18.57756     17.90825     -2.233     3.31     52.25724 273.4938280 -18.6042918     0.725     0.458  71.12
       170   1588.5240    785.9480   2.7374746239e+02  -1.8337761775e+01  -4.2979   0.4023     52.37838     19.40257      0.971     2.37      52.0784 273.7474624 -18.3377618     0.709     0.597 -33.18
       171   1360.2326    774.1618   2.7362790464e+02  -1.8439953835e+01  -4.5794   0.3167     67.88512     19.79814      1.257     2.47      52.2075 273.6279046 -18.4399538     0.815     0.583  75.51
       172     45.1726    773.4076   2.7297049081e+02  -1.9059102966e+01  -5.3834   0.1630     142.3568     21.36143      1.302     3.86     52.33297 272.9704908 -19.0591030     1.299     0.577  38.24
       173    301.7276   1720.5163   2.7357017225e+02  -1.9385815871e+01  -4.4312   0.3590      59.2236     19.57817      0.996     3.36     52.30207 273.5701723 -19.3858159     1.181     0.487  17.78
       174    420.0105   1721.3953   2.7363002945e+02  -1.9330526367e+01  -3.7314   0.6426     31.08423     18.39256      0.872     3.38     52.28695 273.6300295 -19.3305264     0.924     0.619  66.65
       175    674.3065   1718.0755   2.7375561077e+02  -1.9208702028e+01  -5.1387   0.1992     113.6241     20.84057      1.120     3.21     52.23531 273.7556108 -19.2087020     0.903     0.840 -11.03
       176    618.5612   1706.4124   2.7372176891e+02  -1.9229595666e+01  -4.7995   0.2636     83.13972     20.17972      0.836     2.97     52.23535 273.7217689 -19.2295957     0.918     0.668  18.42
       177    572.2579   1705.4290   2.7369834324e+02  -1.9251069250e+01  -3.6970   0.6819       30.117     18.90963      1.029     3.65     52.20224 273.6983432 -19.2510692     0.840     0.456  16.84
       178   1504.2321   1696.7083   2.7415890797e+02  -1.8806245503e+01  -7.5474   0.0384     1044.644     36.95063      1.094     2.03     51.88074 274.1589080 -18.8062455     0.941     0.826 -73.87
       179   1299.2879   1688.9622   2.7405302490e+02  -1.8899642766e+01  99.0000  99.0000    -46.07569     18.00226     -6.523     3.03     52.32638 274.0530249 -18.8996428     0.925     0.291 -38.69
       180    820.1933   1673.6847   2.7380636088e+02  -1.9118970223e+01  -6.0388   0.1009     260.3212     24.17442      1.130     2.50     52.15323 273.8063609 -19.1189702     0.870     0.752  27.64
       181   1467.0337   1593.4452   2.7408882692e+02  -1.8775340807e+01  -4.7980   0.2628     83.02353     20.09301      1.264     1.82     51.89871 274.0888269 -18.7753408     0.567     0.481  -0.04
       182   1206.6023   1662.0938   2.7399355083e+02  -1.8930908132e+01  99.0000  99.0000    -8.648914     17.90825     -1.367     4.13     52.23961 273.9935508 -18.9309081     1.036     0.606  43.83
       183   1211.3818   1635.6038   2.7398282770e+02  -1.8915725087e+01  -4.0214   0.5084     40.60489     19.00816      1.005     4.04     52.14488 273.9828277 -18.9157251     1.078     0.433 -13.82
       184   1128.5069   1631.9034   2.7393939769e+02  -1.8953468830e+01  -6.1362   0.0936     284.7643      24.5376      0.926     1.94     52.32407 273.9393977 -18.9534688     0.892     0.710 -47.81
       185   1513.7879   1604.1881   2.7411754801e+02  -1.8758179692e+01  -5.2286   0.1861     123.4326     21.15452      1.808     4.06     51.65038 274.1175480 -18.7581797     0.997     0.473 -54.12
       186   1093.7426   1607.9556   2.7390988569e+02  -1.8958830911e+01  99.0000  99.0000    -4.928692     18.09578     -1.008     4.85     52.32703 273.9098857 -18.9588309     1.156     0.576  16.63
       187   1697.7855   1619.8427   2.7421683890e+02  -1.8678342167e+01  -5.2776   0.1790      129.137     21.28892      1.620     3.74      51.8487 274.2168389 -18.6783422     1.190     0.485 -51.28
       188   1133.2689   1593.3864   2.7392104816e+02  -1.8935355495e+01  99.0000  99.0000    -22.72342     18.00226     -2.650     1.91      52.3169 273.9210482 -18.9353555     0.687     0.437  65.72
       189    403.4287   1588.6272   2.7355559707e+02  -1.9275501456e+01  -4.2262   0.4181     49.03053     18.87412      0.922     1.01     52.05803 273.5555971 -19.2755015     0.513     0.482  42.86
       190    967.8972   1554.0590   2.7382047316e+02  -1.8992762728e+01  -7.2693   0.0453     808.5855     33.70523      1.179     2.15     51.96612 273.8204732 -18.9927627     0.988     0.816 -30.16
       191   1948.3238   1547.4258   2.7430525184e+02  -1.8525849301e+01  -4.4560   0.3453     60.59236     19.26578      1.856     4.38     51.58005 274.3052518 -18.5258493     1.095     0.499   0.73
       192   1907.0250   1537.4556   2.7427956952e+02  -1.8540587055e+01  -5.5364   0.1459     163.8907     22.01354      1.239     3.14     51.76796 274.2795695 -18.5405871     1.059     0.530 -63.17
       193   1486.8848   1533.5378   2.7406914229e+02  -1.8737379810e+01  -5.2238   0.1840     122.8915     20.81993      2.305     3.98     51.72626 274.0691423 -18.7373798     1.149     0.482 -59.44
       194   1085.9084   1528.8490   2.7386677062e+02  -1.8925192415e+01  -7.8905   0.0318     1432.898     41.91634      1.143     2.22     52.29298 273.8667706 -18.9251924     0.967     0.920  13.44
       195   1825.6083   1474.1745   2.7420765185e+02  -1.8549489109e+01  -5.4775   0.1532     155.2347     21.89329      1.565     3.95     51.68179 274.2076519 -18.5494891     1.184     0.549 -57.29
       196   2013.9386   1493.9242   2.7431094256e+02  -1.8469739260e+01  -5.5091   0.1490     159.8234     21.92097      2.604     2.48     51.52254 274.3109426 -18.4697393     0.964     0.575 -45.95
       197   1442.4719   1478.2525   2.7401917460e+02  -1.8732989592e+01  -4.7202   0.2815     77.28481     20.03412      1.797     3.37     51.88469 274.0191746 -18.7329896     1.127     0.292 -54.48
       198    456.5058   1481.4150   2.7352866165e+02  -1.9200109952e+01  -5.7045   0.1276     191.3349     22.47863      1.861     3.50       51.847 273.5286616 -19.2001100     1.168     0.704  25.04
       199   1624.3345   1482.1415   2.7411181746e+02  -1.8648745954e+01  -5.0286   0.2133     102.6663     20.16166      1.984     3.80      51.6664 274.1118175 -18.6487460     1.025     0.404 -73.85
       200    543.5500   1456.0449   2.7356000443e+02  -1.9146861009e+01  -4.8306   0.2559     85.55468      20.1559      2.579     2.91     51.85781 273.5600044 -19.1468610     0.656     0.478   0.01
       201    871.2265   1453.2950   2.7372209870e+02  -1.8990865433e+01  -4.4962   0.3398     62.87698     19.67125      0.922     2.16     51.99383 273.7220987 -18.9908654     0.678     0.628  48.79
       202    722.9655   1444.1827   2.7364331553e+02  -1.9056697670e+01  -5.8860   0.1126     226.1561     23.45714      1.217     1.99     52.05518 273.6433155 -19.0566977     0.864     0.670  23.29
       203    950.7513   1432.5473   2.7375134376e+02  -1.8943653363e+01  -6.6429   0.0663     454.1289      27.7143      1.113     2.13     52.10303 273.7513438 -18.9436534     0.940     0.825  18.38
       204    310.6395   1429.1001   2.7342925720e+02  -1.9244133348e+01  -6.5319   0.0732     409.9822     27.64862      1.489     5.52     52.11056 273.4292572 -19.2441333     1.481     0.749  32.22
       205    775.6944   1402.9271   2.7364912913e+02  -1.9012318875e+01  -4.0365   0.5041     41.17207      19.1116      0.915     1.82     52.11022 273.6491291 -19.0123189     0.698     0.422  66.26
       206    322.0038   1390.6759   2.7341615068e+02  -1.9220618823e+01  -4.2197   0.4283     48.73786     19.22091      1.072     2.38     52.15115 273.4161507 -19.2206188     0.786     0.447  52.68
       207   1379.3314   1374.9258   2.7393621578e+02  -1.8714258149e+01  -4.2384   0.4253     49.58386     19.41754      1.282     4.48     52.07046 273.9362158 -18.7142581     1.166     0.489 -31.56
       208    936.8236   1376.8290   2.7371671457e+02  -1.8924092906e+01  99.0000  99.0000    -8.763676     18.09578     -1.354     2.00     52.16373 273.7167146 -18.9240929     0.631     0.427  90.00
       209   1574.7690   1365.8883   2.7402915236e+02  -1.8617438960e+01  -4.6170   0.3056     70.27174     19.77314      1.432     3.10     51.79525 274.0291524 -18.6174390     0.693     0.406  87.49
       210    875.9542   1352.9994   2.7367432325e+02  -1.8941563132e+01  -2.3940   2.1744     9.069776     18.15971      0.443     1.98     52.08609 273.6743233 -18.9415631     0.643     0.405  89.98
       211   1653.3533   1349.0651   2.7405983496e+02  -1.8572178966e+01  -5.3285   0.1714     135.3323     21.35504      1.330     2.23     51.79015 274.0598350 -18.5721790     0.886     0.555 -34.85
       212   1487.9915   1343.3217   2.7397480459e+02  -1.8647926768e+01  -4.2927   0.4023     52.13025     19.30895      1.193     2.46      51.9173 273.9748046 -18.6479268     0.633     0.482   0.01
       213   1046.5646   1336.0378   2.7375100488e+02  -1.8853111169e+01  -3.6151   0.7261     27.92767     18.67172      0.624     2.34     52.25983 273.7510049 -18.8531112     0.703     0.559  53.09
       214    821.0863   1329.9302   2.7363544684e+02  -1.8956409873e+01  -2.3347   2.2948     8.587602     18.14643      0.482     3.22     52.21536 273.6354468 -18.9564099     0.713     0.424   5.20
       215   1721.2756   1120.7514   2.7397980743e+02  -1.8432654058e+01  -6.4898   0.0733     394.3858     26.61465      1.624     3.31     51.61416 273.9798074 -18.4326541     1.273     0.709 -51.92
       216    897.9977   1312.9534   2.7366520449e+02  -1.8912128694e+01   0.9839  48.4153    0.4040586     18.01348      0.044     2.26     52.30729 273.6652045 -18.9121287     0.713     0.438  22.24
       217   1956.6458   1312.8308   2.7419236206e+02  -1.8411896668e+01  -5.2982   0.1755     131.6012      21.2675      1.607     2.65     51.86416 274.1923621 -18.4118967     0.730     0.638 -83.05
       218    885.9745   1247.9919   2.7362687705e+02  -1.8887315314e+01  -2.9031   1.3786     14.49545     18.40045      0.462     1.87     52.37438 273.6268770 -18.8873153     0.694     0.434  70.48
       219   1377.3931   1261.2346   2.7387870297e+02  -1.8661296390e+01  -8.4907   0.0231     2490.517     53.02097      1.160     3.25     52.25105 273.8787030 -18.6612964     1.132     0.754 -42.72
       220    624.0609   1265.8024   2.7350503940e+02  -1.9019275999e+01  99.0000  99.0000    -10.07737     17.90825     -1.013     3.89     52.13532 273.5050394 -19.0192760     0.873     0.497  52.97
       221   1739.7661   1289.5171   2.7407295083e+02  -1.8503497524e+01  -4.5163   0.3282     64.05099     19.35533      1.433     0.92     51.84909 274.0729508 -18.5034975     0.530     0.461  46.70
       222    817.5887   1271.3919   2.7360475229e+02  -1.8930605638e+01  -3.9454   0.5355     37.85647      18.6664      0.880     3.02     52.21792 273.6047523 -18.9306056     0.788     0.360  64.64
       223   1800.1203   1248.1289   2.7408337676e+02  -1.8456917023e+01  -2.5702   1.8437     10.66789      18.1107      0.669     3.21     51.91184 274.0833768 -18.4569170     1.175     0.256  18.53
       224    141.7125   1252.2029   2.7325690244e+02  -1.9239948548e+01  -4.6357   0.3008     71.49401     19.80403      1.164     4.12     52.37637 273.2569024 -19.2399485     0.941     0.516  47.10
       225   1059.1626   1177.4238   2.7367857342e+02  -1.8772148311e+01  -3.3958   0.8601     22.82076     18.07338      0.670     0.97     52.19204 273.6785734 -18.7721483     0.504     0.489  57.19
       226   1914.3744   1121.6510   2.7407718478e+02  -1.8340770570e+01  -4.7106   0.3023      76.5987     21.32354      3.078     4.43     51.87054 274.0771848 -18.3407706     1.118     0.500 -89.97
       227    809.1886   1172.8522   2.7355140758e+02  -1.8888235288e+01  -4.0801   0.4876     42.85769     19.24356      1.033     3.36      51.9998 273.5514076 -18.8882353     0.972     0.532  77.11
       228    614.0248   1193.6078   2.7346401351e+02  -1.8989868755e+01  -5.6556   0.1332     182.9102     22.44138      1.332     2.92     51.99364 273.4640135 -18.9898688     1.060     0.707  36.42
       229   2002.2911   1228.6188   2.7417327208e+02  -1.8350789631e+01  -4.1040   0.4732      43.8132     19.09237      1.242     3.71     51.99908 274.1732721 -18.3507896     1.139     0.348 -76.66
       230   1054.9608   1196.5244   2.7368577944e+02  -1.8783220206e+01  -7.6021   0.0372     1098.608     37.67377      1.066     1.99     52.20684 273.6857794 -18.7832202     0.896     0.764  24.04
       231   1624.5231   1215.1229   2.7397867153e+02  -1.8522916083e+01  -4.2654   0.4136     50.83604     19.36278      1.350     2.90     51.90151 273.9786715 -18.5229161     0.835     0.296 -59.13
       232   1803.1081   1215.9352   2.7406786532e+02  -1.8438775411e+01  -5.4663   0.1545     153.6433     21.85691      1.107     2.12     51.91183 274.0678653 -18.4387754     0.852     0.726 -61.70
       233   1442.8189   1205.5736   2.7388359849e+02  -1.8604254083e+01  -5.4374   0.1574     149.6047     21.68664      0.939     2.23     52.05138 273.8835985 -18.6042541     0.911     0.606 -63.98
       234   1058.1042   1185.0210   2.7368177047e+02  -1.8776106428e+01  -2.1468   2.7228      7.22274     18.10879      0.333     2.85      52.1797 273.6817705 -18.7761064     0.735     0.437 -66.62
       235   1169.4995   1169.4222   2.7372946894e+02  -1.8716430087e+01  -4.9415   0.2288     94.75372     19.96447      0.908     2.56     51.97875 273.7294689 -18.7164301     0.736     0.688 -81.71
       236   1768.5906   1166.1447   2.7402583098e+02  -1.8431620153e+01  -4.6577   0.2966     72.96023      19.9259      1.362     2.40     51.83091 274.0258310 -18.4316202     0.732     0.331 -56.08
       237    998.2267   1154.9637   2.7363679918e+02  -1.8790390541e+01  -5.5649   0.1427     168.2477     22.11229      1.178     2.24     52.06215 273.6367992 -18.7903905     0.801     0.736 -44.35
       238   2004.0593   1133.2512   2.7412653948e+02  -1.8304747613e+01  -5.4639   0.1542     153.3091     21.77188      1.489     3.43     51.74072 274.1265395 -18.3047476     1.127     0.635 -64.03
       239   1896.0781   1128.5606   2.7407156249e+02  -1.8353829648e+01  -4.9902   0.2712     99.09927     24.74324      3.404     4.65      51.9514 274.0715625 -18.3538296     1.061     0.578 -75.49
       240   1972.6836   1113.3989   2.7410112656e+02  -1.8310307799e+01  -5.2723   0.1940     128.5008     22.95323      2.766     4.76     51.58111 274.1011266 -18.3103078     1.293     0.496 -38.87
       241   2019.0081   1082.6802   2.7410778810e+02  -1.8275009187e+01  -5.7744   0.1442     204.0631     27.09374      5.143     4.45     51.44652 274.1077881 -18.2750092     0.813     0.692  89.96
       242    952.8663    988.9866   2.7353154205e+02  -1.8733471124e+01  -6.0688   0.0984     267.6264     24.25555      1.324     3.68     51.88449 273.5315420 -18.7334711     0.963     0.746  75.96
       243   1935.1550   1058.2218   2.7405475813e+02  -1.8302261160e+01  -4.9996   0.2384     99.96634     21.94167      1.308     4.59     52.30321 274.0547581 -18.3022612     1.200     0.692  17.48
       244   1547.6957   1028.7249   2.7384783908e+02  -1.8470730941e+01  -4.7032   0.2843     76.08113      19.9195      3.031     2.91      51.9276 273.8478391 -18.4707309     0.790     0.315 -57.68
       245   1482.1423   1042.4222   2.7382197122e+02  -1.8508759534e+01  -6.0707   0.1075     268.0815     26.52481      1.747     4.90     51.85497 273.8219712 -18.5087595     1.369     0.828 -53.06
       246   1859.7782   1028.5433   2.7400301985e+02  -1.8323401177e+01  -4.5927   0.3078     68.72218     19.47563      2.190     3.70     52.11777 274.0030199 -18.3234012     0.818     0.481 -78.00
       247    890.8132    991.7573   2.7350209528e+02  -1.8764241265e+01  -4.6843   0.2888     74.77103     19.88659      1.593     3.84     51.91706 273.5020953 -18.7642413     0.854     0.496  40.04
       248   1370.2179   1015.4680   2.7375289895e+02  -1.8549087105e+01  -7.3883   0.0422     902.2517     35.01904      1.170     2.21     51.87274 273.7528989 -18.5490871     1.070     0.783 -54.04
